pos,corr_resp,trials.thisRepN,trials.thisTrialN,trials.thisN,trials.thisIndex,trials_2.thisRepN,trials_2.thisTrialN,trials_2.thisN,trials_2.thisIndex,Fixation.started,Line1.started,Line2.started,Line3.started,Line4.started,Fixation.stopped,probe.started,key_resp.started,key_resp.keys,key_resp.corr,key_resp.rt,participant,session,date,expName,psychopyVersion,frameRate,
-50,x,0,0,0,0,,,,,24.247662000001583,24.9487904000016,24.9487904000016,24.9487904000016,24.9487904000016,25.24836839999989,25.94798449999871,25.94798449999871,x,1,0.9962722999989637,037538,001,2022-10-06_14h38.50.162,MotorSequenceLearningTask,2022.2.4,60.94316866704763,
150,v,0,1,1,1,,,,,26.964154000001145,27.963550600001327,27.963550600001327,27.963550600001327,27.963550600001327,27.963550600001327,28.96300500000143,28.96300500000143,v,1,0.7624724999986938,037538,001,2022-10-06_14h38.50.162,MotorSequenceLearningTask,2022.2.4,60.94316866704763,
50,c,0,2,2,2,,,,,29.74598490000062,30.745381400000042,30.745381400000042,30.745381400000042,30.745381400000042,30.745381400000042,31.744877000000997,31.744877000000997,c,1,0.5859101999994891,037538,001,2022-10-06_14h38.50.162,MotorSequenceLearningTask,2022.2.4,60.94316866704763,
-150,z,0,3,3,3,,,,,32.36136289999922,33.360908599999675,33.360908599999675,33.360908599999675,33.360908599999675,33.360908599999675,34.359769400001824,34.359769400001824,z,1,0.3661893999997119,037538,001,2022-10-06_14h38.50.162,MotorSequenceLearningTask,2022.2.4,60.94316866704763,
-50,x,1,0,4,0,,,,,34.74318739999944,35.74281189999965,35.74281189999965,35.74281189999965,35.74281189999965,35.74281189999965,36.74203920000218,36.74203920000218,x,1,0.29703089999748045,037538,001,2022-10-06_14h38.50.162,MotorSequenceLearningTask,2022.2.4,60.94316866704763,
150,v,1,1,5,1,,,,,37.05843730000197,38.05782190000173,38.05782190000173,38.05782190000173,38.05782190000173,38.05782190000173,39.05723819999912,39.05723819999912,v,1,0.46304830000008224,037538,001,2022-10-06_14h38.50.162,MotorSequenceLearningTask,2022.2.4,60.94316866704763,
50,c,1,2,6,2,,,,,39.540266700001666,40.53968879999957,40.53968879999957,40.53968879999957,40.53968879999957,40.53968879999957,41.539079900001525,41.539079900001525,c,1,0.3463564999983646,037538,001,2022-10-06_14h38.50.162,MotorSequenceLearningTask,2022.2.4,60.94316866704763,
-150,z,1,3,7,3,,,,,41.905510600001435,42.90507190000062,42.90507190000062,42.90507190000062,42.90507190000062,42.90507190000062,43.904545500001404,43.904545500001404,z,1,0.28206430000136606,037538,001,2022-10-06_14h38.50.162,MotorSequenceLearningTask,2022.2.4,60.94316866704763,
-50,x,2,0,8,0,,,,,44.204392100000405,45.2038461000011,45.2038461000011,45.2038461000011,45.2038461000011,45.2038461000011,46.20323819999976,46.20323819999976,x,1,0.6315484999977343,037538,001,2022-10-06_14h38.50.162,MotorSequenceLearningTask,2022.2.4,60.94316866704763,
150,v,2,1,9,1,,,,,46.85284060000049,47.852146600002015,47.852146600002015,47.852146600002015,47.852146600002015,47.852146600002015,48.85169270000188,48.85169270000188,v,1,0.5802542999990692,037538,001,2022-10-06_14h38.50.162,MotorSequenceLearningTask,2022.2.4,60.94316866704763,
50,c,2,2,10,2,,,,,49.451346699999704,50.450732100001915,50.450732100001915,50.450732100001915,50.450732100001915,50.450732100001915,51.450249699999404,51.450249699999404,c,1,0.6729119999981776,037538,001,2022-10-06_14h38.50.162,MotorSequenceLearningTask,2022.2.4,60.94316866704763,
-150,z,2,3,11,3,,,,,52.14977759999965,53.14931570000044,53.14931570000044,53.14931570000044,53.14931570000044,53.14931570000044,54.14899679999871,54.14899679999871,z,1,0.6623809000011533,037538,001,2022-10-06_14h38.50.162,MotorSequenceLearningTask,2022.2.4,60.94316866704763,
-50,x,3,0,12,0,,,,,54.831683799999155,55.831398599999375,55.831398599999375,55.831398599999375,55.831398599999375,55.831398599999375,56.830572999999276,56.830572999999276,x,1,0.4619738999972469,037538,001,2022-10-06_14h38.50.162,MotorSequenceLearningTask,2022.2.4,60.94316866704763,
150,v,3,1,13,1,,,,,57.3135340000008,58.3130095000015,58.3130095000015,58.3130095000015,58.3130095000015,58.3130095000015,59.31252730000051,59.31252730000051,v,1,0.30526589999863063,037538,001,2022-10-06_14h38.50.162,MotorSequenceLearningTask,2022.2.4,60.94316866704763,
50,c,3,2,14,2,,,,,59.6456242000022,60.64541050000116,60.64541050000116,60.64541050000116,60.64541050000116,60.64541050000116,61.64451310000004,61.64451310000004,c,1,0.2873771999984456,037538,001,2022-10-06_14h38.50.162,MotorSequenceLearningTask,2022.2.4,60.94316866704763,
-150,z,3,3,15,3,,,,,61.96091439999873,62.96054670000012,62.96054670000012,62.96054670000012,62.96054670000012,62.96054670000012,63.96002239999871,63.96002239999871,z,1,0.21002129999760655,037538,001,2022-10-06_14h38.50.162,MotorSequenceLearningTask,2022.2.4,60.94316866704763,
-50,x,4,0,16,0,,,,,64.19324160000178,65.1926807000018,65.1926807000018,65.1926807000018,65.1926807000018,65.1926807000018,66.19207480000114,66.19207480000114,x,1,0.3042732999965665,037538,001,2022-10-06_14h38.50.162,MotorSequenceLearningTask,2022.2.4,60.94316866704763,
150,v,4,1,17,1,,,,,66.52533730000141,67.52455829999963,67.52455829999963,67.52455829999963,67.52455829999963,67.52455829999963,68.52411650000067,68.52411650000067,v,1,0.547290399998019,037538,001,2022-10-06_14h38.50.162,MotorSequenceLearningTask,2022.2.4,60.94316866704763,
50,c,4,2,18,2,,,,,69.09043530000054,70.08979230000114,70.08979230000114,70.08979230000114,70.08979230000114,70.08979230000114,71.0893060999988,71.0893060999988,c,1,0.247272199998406,037538,001,2022-10-06_14h38.50.162,MotorSequenceLearningTask,2022.2.4,60.94316866704763,
-150,z,4,3,19,3,,,,,71.3557361000021,72.35532270000112,72.35532270000112,72.35532270000112,72.35532270000112,72.35532270000112,73.35475840000072,73.35475840000072,z,1,0.35500369999863324,037538,001,2022-10-06_14h38.50.162,MotorSequenceLearningTask,2022.2.4,60.94316866704763,
-50,x,5,0,20,0,,,,,73.73766909999904,74.73768800000107,74.73768800000107,74.73768800000107,74.73768800000107,74.73768800000107,75.73685950000072,75.73685950000072,x,1,0.016098000000056345,037538,001,2022-10-06_14h38.50.162,MotorSequenceLearningTask,2022.2.4,60.94316866704763,
150,v,5,1,21,1,,,,,75.76997599999959,76.76940209999884,76.76940209999884,76.76940209999884,76.76940209999884,76.76940209999884,77.76882850000038,77.76882850000038,v,1,0.17779329999757465,037538,001,2022-10-06_14h38.50.162,MotorSequenceLearningTask,2022.2.4,60.94316866704763,
50,c,5,2,22,2,,,,,77.96879220000119,78.96834039999885,78.96834039999885,78.96834039999885,78.96834039999885,78.96834039999885,79.96758520000003,79.96758520000003,c,1,0.2651505999965593,037538,001,2022-10-06_14h38.50.162,MotorSequenceLearningTask,2022.2.4,60.94316866704763,
-150,z,5,3,23,3,,,,,80.25090080000155,81.25058150000041,81.25058150000041,81.25058150000041,81.25058150000041,81.25058150000041,82.24976109999989,82.24976109999989,z,1,0.2362775999972655,037538,001,2022-10-06_14h38.50.162,MotorSequenceLearningTask,2022.2.4,60.94316866704763,
-50,x,6,0,24,0,,,,,82.51625459999923,83.51581920000172,83.51581920000172,83.51581920000172,83.51581920000172,83.51581920000172,84.51515070000096,84.51515070000096,x,1,0.3579957000001741,037538,001,2022-10-06_14h38.50.162,MotorSequenceLearningTask,2022.2.4,60.94316866704763,
150,v,6,1,25,1,,,,,84.89829269999973,85.8976032999999,85.8976032999999,85.8976032999999,85.8976032999999,85.8976032999999,86.8970948999995,86.8970948999995,v,1,0.442241799999465,037538,001,2022-10-06_14h38.50.162,MotorSequenceLearningTask,2022.2.4,60.94316866704763,
50,c,6,2,26,2,,,,,87.36360549999881,88.36298170000009,88.36298170000009,88.36298170000009,88.36298170000009,88.36298170000009,89.36234479999985,89.36234479999985,c,1,0.28415149999636924,037538,001,2022-10-06_14h38.50.162,MotorSequenceLearningTask,2022.2.4,60.94316866704763,
-150,z,6,3,27,3,,,,,89.67908019999959,90.6784370000023,90.6784370000023,90.6784370000023,90.6784370000023,90.6784370000023,91.67786070000147,91.67786070000147,z,1,0.22087729999839212,037538,001,2022-10-06_14h38.50.162,MotorSequenceLearningTask,2022.2.4,60.94316866704763,
-50,x,7,0,28,0,,,,,91.92749990000084,92.92709000000104,92.92709000000104,92.92709000000104,92.92709000000104,92.92709000000104,93.92665209999905,93.92665209999905,x,1,0.5481917999968573,037538,001,2022-10-06_14h38.50.162,MotorSequenceLearningTask,2022.2.4,60.94316866704763,
150,v,7,1,29,1,,,,,94.49285140000211,95.4922413000022,95.4922413000022,95.4922413000022,95.4922413000022,95.4922413000022,96.49179509999885,96.49179509999885,v,1,0.40723869999783346,037538,001,2022-10-06_14h38.50.162,MotorSequenceLearningTask,2022.2.4,60.94316866704763,
50,c,7,2,30,2,,,,,96.92491109999901,97.92418109999926,97.92418109999926,97.92418109999926,97.92418109999926,97.92418109999926,98.92374950000158,98.92374950000158,c,1,0.39646039999934146,037538,001,2022-10-06_14h38.50.162,MotorSequenceLearningTask,2022.2.4,60.94316866704763,
-150,z,7,3,31,3,,,,,99.34034679999968,100.33978800000114,100.33978800000114,100.33978800000114,100.33978800000114,100.33978800000114,101.33914060000097,101.33914060000097,z,1,0.22829429999910644,037538,001,2022-10-06_14h38.50.162,MotorSequenceLearningTask,2022.2.4,60.94316866704763,
-50,x,8,0,32,0,,,,,101.58888500000103,102.58845139999903,102.58845139999903,102.58845139999903,102.58845139999903,102.58845139999903,103.58786229999896,103.58786229999896,x,1,0.5907336999989639,037538,001,2022-10-06_14h38.50.162,MotorSequenceLearningTask,2022.2.4,60.94316866704763,
150,v,8,1,33,1,,,,,104.2041558000019,105.20351949999895,105.20351949999895,105.20351949999895,105.20351949999895,105.20351949999895,106.20299660000092,106.20299660000092,c,0,0.33982509999987087,037538,001,2022-10-06_14h38.50.162,MotorSequenceLearningTask,2022.2.4,60.94316866704763,
50,c,8,2,34,2,,,,,106.56956419999915,107.56900590000078,107.56900590000078,107.56900590000078,107.56900590000078,107.56900590000078,108.56830320000154,108.56830320000154,c,1,0.25860409999950207,037538,001,2022-10-06_14h38.50.162,MotorSequenceLearningTask,2022.2.4,60.94316866704763,
-150,z,8,3,35,3,,,,,108.85147649999999,109.85098490000019,109.85098490000019,109.85098490000019,109.85098490000019,109.85098490000019,110.85038980000172,110.85038980000172,z,1,0.37173560000155703,037538,001,2022-10-06_14h38.50.162,MotorSequenceLearningTask,2022.2.4,60.94316866704763,
-50,x,9,0,36,0,,,,,111.25014360000205,112.24958490000063,112.24958490000063,112.24958490000063,112.24958490000063,112.24958490000063,113.2490558999998,113.2490558999998,x,1,0.4323253999973531,037538,001,2022-10-06_14h38.50.162,MotorSequenceLearningTask,2022.2.4,60.94316866704763,
150,v,9,1,37,1,,,,,113.69878310000058,114.69819230000212,114.69819230000212,114.69819230000212,114.69819230000212,114.69819230000212,115.69774580000012,115.69774580000012,v,1,0.3197582999964652,037538,001,2022-10-06_14h38.50.162,MotorSequenceLearningTask,2022.2.4,60.94316866704763,
50,c,9,2,38,2,,,,,116.04761620000136,117.04719029999978,117.04719029999978,117.04719029999978,117.04719029999978,117.04719029999978,118.04640350000045,118.04640350000045,c,1,0.5942900999980338,037538,001,2022-10-06_14h38.50.162,MotorSequenceLearningTask,2022.2.4,60.94316866704763,
-150,z,9,3,39,3,,,,,118.66255730000194,119.66235750000124,119.66235750000124,119.66235750000124,119.66235750000124,119.66235750000124,120.66154350000215,120.66154350000215,z,1,0.30336829999941983,037538,001,2022-10-06_14h38.50.162,MotorSequenceLearningTask,2022.2.4,60.94316866704763,
-50,x,10,0,40,0,,,,,120.99483400000099,121.99428760000228,121.99428760000228,121.99428760000228,121.99428760000228,121.99428760000228,122.9935871000016,122.9935871000016,x,1,0.46604519999891636,037538,001,2022-10-06_14h38.50.162,MotorSequenceLearningTask,2022.2.4,60.94316866704763,
150,v,10,1,41,1,,,,,123.47661700000026,124.47607229999994,124.47607229999994,124.47607229999994,124.47607229999994,124.47607229999994,125.47554229999878,125.47554229999878,v,1,0.3152540000010049,037538,001,2022-10-06_14h38.50.162,MotorSequenceLearningTask,2022.2.4,60.94316866704763,
50,c,10,2,42,2,,,,,125.80875970000125,126.8082476999989,126.8082476999989,126.8082476999989,126.8082476999989,126.8082476999989,127.80770620000112,127.80770620000112,c,1,0.5625102999983937,037538,001,2022-10-06_14h38.50.162,MotorSequenceLearningTask,2022.2.4,60.94316866704763,
-150,z,10,3,43,3,,,,,128.39070920000086,129.39025740000216,129.39025740000216,129.39025740000216,129.39025740000216,129.39025740000216,130.38955429999987,130.38955429999987,z,1,0.22680309999850579,037538,001,2022-10-06_14h38.50.162,MotorSequenceLearningTask,2022.2.4,60.94316866704763,
-50,x,11,0,44,0,,,,,130.63934620000146,131.63891630000217,131.63891630000217,131.63891630000217,131.63891630000217,131.63891630000217,132.63819560000047,132.63819560000047,x,1,0.5841121000012208,037538,001,2022-10-06_14h38.50.162,MotorSequenceLearningTask,2022.2.4,60.94316866704763,
150,v,11,1,45,1,,,,,133.25477469999896,134.2540939999999,134.2540939999999,134.2540939999999,134.2540939999999,134.2540939999999,135.25362020000102,135.25362020000102,v,1,0.2666410999991058,037538,001,2022-10-06_14h38.50.162,MotorSequenceLearningTask,2022.2.4,60.94316866704763,
50,c,11,2,46,2,,,,,135.53655480000089,136.53612260000227,136.53612260000227,136.53612260000227,136.53612260000227,136.53612260000227,137.53588949999903,137.53588949999903,c,1,0.28299880000122357,037538,001,2022-10-06_14h38.50.162,MotorSequenceLearningTask,2022.2.4,60.94316866704763,
-150,z,11,3,47,3,,,,,137.8353261000011,138.8349545000019,138.8349545000019,138.8349545000019,138.8349545000019,138.8349545000019,139.83437630000117,139.83437630000117,z,1,0.4897326999998768,037538,001,2022-10-06_14h38.50.162,MotorSequenceLearningTask,2022.2.4,60.94316866704763,
-50,x,12,0,48,0,,,,,140.35060729999896,141.34996020000108,141.34996020000108,141.34996020000108,141.34996020000108,141.34996020000108,142.34965290000036,142.34965290000036,x,1,0.30063119999613264,037538,001,2022-10-06_14h38.50.162,MotorSequenceLearningTask,2022.2.4,60.94316866704763,
150,v,12,1,49,1,,,,,142.68276179999884,143.68211399999927,143.68211399999927,143.68211399999927,143.68211399999927,143.68211399999927,144.68164669999896,144.68164669999896,v,1,0.29535150000083377,037538,001,2022-10-06_14h38.50.162,MotorSequenceLearningTask,2022.2.4,60.94316866704763,
50,c,12,2,50,2,,,,,144.9979764000018,145.99752440000157,145.99752440000157,145.99752440000157,145.99752440000157,145.99752440000157,146.9969459999993,146.9969459999993,c,1,0.25324929999987944,037538,001,2022-10-06_14h38.50.162,MotorSequenceLearningTask,2022.2.4,60.94316866704763,
-150,z,12,3,51,3,,,,,147.28003720000197,148.27968150000015,148.27968150000015,148.27968150000015,148.27968150000015,148.27968150000015,149.2788776999987,149.2788776999987,z,1,0.18746719999762718,037538,001,2022-10-06_14h38.50.162,MotorSequenceLearningTask,2022.2.4,60.94316866704763,
-50,x,13,0,52,0,,,,,149.49556920000032,150.4951097000012,150.4951097000012,150.4951097000012,150.4951097000012,150.4951097000012,151.4944585000012,151.4944585000012,x,1,0.30740399999922374,037538,001,2022-10-06_14h38.50.162,MotorSequenceLearningTask,2022.2.4,60.94316866704763,
150,v,13,1,53,1,,,,,151.82751930000086,152.82702820000122,152.82702820000122,152.82702820000122,152.82702820000122,152.82702820000122,153.82652320000125,153.82652320000125,v,1,0.28256580000015674,037538,001,2022-10-06_14h38.50.162,MotorSequenceLearningTask,2022.2.4,60.94316866704763,
50,c,13,2,54,2,,,,,154.126278300002,155.12570549999873,155.12570549999873,155.12570549999873,155.12570549999873,155.12570549999873,156.12518049999926,156.12518049999926,c,1,0.3211143999978958,037538,001,2022-10-06_14h38.50.162,MotorSequenceLearningTask,2022.2.4,60.94316866704763,
-150,z,13,3,55,3,,,,,156.47510329999932,157.47443349999958,157.47443349999958,157.47443349999958,157.47443349999958,157.47443349999958,158.47380469999916,158.47380469999916,z,1,0.5735917999991216,037538,001,2022-10-06_14h38.50.162,MotorSequenceLearningTask,2022.2.4,60.94316866704763,
-50,x,14,0,56,0,,,,,159.0736896999988,160.07287540000107,160.07287540000107,160.07287540000107,160.07287540000107,160.07287540000107,161.07230510000227,161.07230510000227,x,1,0.37243799999851035,037538,001,2022-10-06_14h38.50.162,MotorSequenceLearningTask,2022.2.4,60.94316866704763,
150,v,14,1,57,1,,,,,161.47219250000126,162.47173159999875,162.47173159999875,162.47173159999875,162.47173159999875,162.47173159999875,163.47108429999935,163.47108429999935,v,1,0.23379729999942356,037538,001,2022-10-06_14h38.50.162,MotorSequenceLearningTask,2022.2.4,60.94316866704763,
50,c,14,2,58,2,,,,,163.73751360000097,164.73707320000176,164.73707320000176,164.73707320000176,164.73707320000176,164.73707320000176,165.73640890000024,165.73640890000024,c,1,0.23955989999740268,037538,001,2022-10-06_14h38.50.162,MotorSequenceLearningTask,2022.2.4,60.94316866704763,
-150,z,14,3,59,3,,,,,166.00305650000155,167.00246250000055,167.00246250000055,167.00246250000055,167.00246250000055,167.00246250000055,168.0018869000014,168.0018869000014,z,1,0.27133519999915734,037538,001,2022-10-06_14h38.50.162,MotorSequenceLearningTask,2022.2.4,60.94316866704763,
-50,x,15,0,60,0,,,,,168.3018106999989,169.30128110000078,169.30128110000078,169.30128110000078,169.30128110000078,169.30128110000078,170.3006615000013,170.3006615000013,x,1,0.3967668000004778,037538,001,2022-10-06_14h38.50.162,MotorSequenceLearningTask,2022.2.4,60.94316866704763,
150,v,15,1,61,1,,,,,170.71724290000202,171.71644050000032,171.71644050000032,171.71644050000032,171.71644050000032,171.71644050000032,172.7158550000022,172.7158550000022,v,1,0.3217207999987295,037538,001,2022-10-06_14h38.50.162,MotorSequenceLearningTask,2022.2.4,60.94316866704763,
50,c,15,2,62,2,,,,,173.06570400000055,174.06527110000025,174.06527110000025,174.06527110000025,174.06527110000025,174.06527110000025,175.06470160000026,175.06470160000026,c,1,0.38103140000021085,037538,001,2022-10-06_14h38.50.162,MotorSequenceLearningTask,2022.2.4,60.94316866704763,
-150,z,15,3,63,3,,,,,175.46458300000086,176.46389859999908,176.46389859999908,176.46389859999908,176.46389859999908,176.46389859999908,177.46331360000113,177.46331360000113,z,1,0.29764069999873755,037538,001,2022-10-06_14h38.50.162,MotorSequenceLearningTask,2022.2.4,60.94316866704763,
-50,x,16,0,64,0,,,,,177.77983560000212,178.7793042000012,178.7793042000012,178.7793042000012,178.7793042000012,178.7793042000012,179.77863050000087,179.77863050000087,x,1,0.33653249999770196,037538,001,2022-10-06_14h38.50.162,MotorSequenceLearningTask,2022.2.4,60.94316866704763,
150,v,16,1,65,1,,,,,180.14511330000096,181.14464149999912,181.14464149999912,181.14464149999912,181.14464149999912,181.14464149999912,182.14398280000023,182.14398280000023,v,1,0.2941967000006116,037538,001,2022-10-06_14h38.50.162,MotorSequenceLearningTask,2022.2.4,60.94316866704763,
50,c,16,2,66,2,,,,,182.46052129999953,183.4599003000003,183.4599003000003,183.4599003000003,183.4599003000003,183.4599003000003,184.4593386000015,184.4593386000015,c,1,0.3080831000006583,037538,001,2022-10-06_14h38.50.162,MotorSequenceLearningTask,2022.2.4,60.94316866704763,
-150,z,16,3,67,3,,,,,184.79282389999935,185.79197399999975,185.79197399999975,185.79197399999975,185.79197399999975,185.79197399999975,186.7914477000013,186.7914477000013,z,1,0.2190846999983478,037538,001,2022-10-06_14h38.50.162,MotorSequenceLearningTask,2022.2.4,60.94316866704763,
-50,x,17,0,68,0,,,,,187.04128599999967,188.04074169999876,188.04074169999876,188.04074169999876,188.04074169999876,188.04074169999876,189.04012480000165,189.04012480000165,x,1,0.6276281999998901,037538,001,2022-10-06_14h38.50.162,MotorSequenceLearningTask,2022.2.4,60.94316866704763,
150,v,17,1,69,1,,,,,189.6898481999997,190.68926439999996,190.68926439999996,190.68926439999996,190.68926439999996,190.68926439999996,191.6886502999987,191.6886502999987,v,1,0.2873781999987841,037538,001,2022-10-06_14h38.50.162,MotorSequenceLearningTask,2022.2.4,60.94316866704763,
50,c,17,2,70,2,,,,,192.0051437000002,193.00474690000192,193.00474690000192,193.00474690000192,193.00474690000192,193.00474690000192,194.00413320000007,194.00413320000007,c,1,0.3081201999957557,037538,001,2022-10-06_14h38.50.162,MotorSequenceLearningTask,2022.2.4,60.94316866704763,
-150,z,17,3,71,3,,,,,194.33781190000082,195.33668970000144,195.33668970000144,195.33668970000144,195.33668970000144,195.35336499999903,196.33605840000018,196.33605840000018,z,1,0.2943679999989399,037538,001,2022-10-06_14h38.50.162,MotorSequenceLearningTask,2022.2.4,60.94316866704763,
-50,x,18,0,72,0,,,,,196.65258940000058,197.65198560000135,197.65198560000135,197.65198560000135,197.65198560000135,197.65198560000135,198.65149670000028,198.65149670000028,x,1,0.39017539999986184,037538,001,2022-10-06_14h38.50.162,MotorSequenceLearningTask,2022.2.4,60.94316866704763,
150,v,18,1,73,1,,,,,199.0678584999987,200.067392500001,200.067392500001,200.067392500001,200.067392500001,200.067392500001,201.06675199999881,201.06675199999881,v,1,0.28916129999925033,037538,001,2022-10-06_14h38.50.162,MotorSequenceLearningTask,2022.2.4,60.94316866704763,
50,c,18,2,74,2,,,,,201.38332900000023,202.38266619999922,202.38266619999922,202.38266619999922,202.38266619999922,202.38266619999922,203.38207659999898,203.38207659999898,c,1,0.23693640000055893,037538,001,2022-10-06_14h38.50.162,MotorSequenceLearningTask,2022.2.4,60.94316866704763,
-150,z,18,3,75,3,,,,,203.6486001000012,204.64816229999997,204.64816229999997,204.64816229999997,204.64816229999997,204.64816229999997,205.6475043999999,205.6475043999999,z,1,0.2966575999962515,037538,001,2022-10-06_14h38.50.162,MotorSequenceLearningTask,2022.2.4,60.94316866704763,
-50,x,19,0,76,0,,,,,205.9639946999996,206.96350150000217,206.96350150000217,206.96350150000217,206.96350150000217,206.96350150000217,207.9629442000005,207.9629442000005,x,1,0.5954711999984283,037538,001,2022-10-06_14h38.50.162,MotorSequenceLearningTask,2022.2.4,60.94316866704763,
150,v,19,1,77,1,,,,,208.57923669999946,209.57933200000116,209.57933200000116,209.57933200000116,209.57933200000116,209.57933200000116,210.5781723,210.5781723,v,1,0.2983423000005132,037538,001,2022-10-06_14h38.50.162,MotorSequenceLearningTask,2022.2.4,60.94316866704763,
50,c,19,2,78,2,,,,,210.8947874000005,211.89415740000186,211.89415740000186,211.89415740000186,211.89415740000186,211.89415740000186,212.89388580000013,212.89388580000013,c,1,0.29592649999904097,037538,001,2022-10-06_14h38.50.162,MotorSequenceLearningTask,2022.2.4,60.94316866704763,
-150,z,19,3,79,3,,,,,213.21083720000024,214.2096973000007,214.2096973000007,214.2096973000007,214.2096973000007,214.2263912999988,215.2088341000017,215.2088341000017,z,1,0.24807769999824814,037538,001,2022-10-06_14h38.50.162,MotorSequenceLearningTask,2022.2.4,60.94316866704763,
-50,x,20,0,80,0,,,,,215.47547159999885,216.47489960000166,216.47489960000166,216.47489960000166,216.47489960000166,216.47489960000166,217.47442750000118,217.47442750000118,x,1,0.3547163000002911,037538,001,2022-10-06_14h38.50.162,MotorSequenceLearningTask,2022.2.4,60.94316866704763,
150,v,20,1,81,1,,,,,217.85738649999985,218.85690130000148,218.85690130000148,218.85690130000148,218.85690130000148,218.85690130000148,219.85661750000145,219.85661750000145,v,1,0.4476669999967271,037538,001,2022-10-06_14h38.50.162,MotorSequenceLearningTask,2022.2.4,60.94316866704763,
50,c,20,2,82,2,,,,,220.3227141999996,221.32217859999946,221.32217859999946,221.32217859999946,221.32217859999946,221.32217859999946,222.32159239999964,222.32159239999964,c,1,0.13484579999931157,037538,001,2022-10-06_14h38.50.162,MotorSequenceLearningTask,2022.2.4,60.94316866704763,
-150,z,20,3,83,3,,,,,222.48817280000003,223.4876222999992,223.4876222999992,223.4876222999992,223.4876222999992,223.4876222999992,224.48722230000203,224.48722230000203,z,1,0.32540249999874504,037538,001,2022-10-06_14h38.50.162,MotorSequenceLearningTask,2022.2.4,60.94316866704763,
-50,x,21,0,84,0,,,,,224.8369015999997,225.83635729999878,225.83635729999878,225.83635729999878,225.83635729999878,225.83635729999878,226.83574510000108,226.83574510000108,x,1,0.23105299999951967,037538,001,2022-10-06_14h38.50.162,MotorSequenceLearningTask,2022.2.4,60.94316866704763,
150,v,21,1,85,1,,,,,227.08559239999886,228.08503900000142,228.08503900000142,228.08503900000142,228.08503900000142,228.08503900000142,229.08487289999903,229.08487289999903,v,1,0.2810790999974415,037538,001,2022-10-06_14h38.50.162,MotorSequenceLearningTask,2022.2.4,60.94316866704763,
50,c,21,2,86,2,,,,,229.38442430000214,230.38373000000138,230.38373000000138,230.38373000000138,230.38373000000138,230.38373000000138,231.38322719999996,231.38322719999996,c,1,0.2478942999987339,037538,001,2022-10-06_14h38.50.162,MotorSequenceLearningTask,2022.2.4,60.94316866704763,
-150,z,21,3,87,3,,,,,231.64972219999981,232.6492091,232.6492091,232.6492091,232.6492091,232.6492091,233.64853810000204,233.64853810000204,z,1,0.003795799995714333,037538,001,2022-10-06_14h38.50.162,MotorSequenceLearningTask,2022.2.4,60.94316866704763,
-50,x,22,0,88,0,,,,,233.68192959999942,234.68132640000113,234.68132640000113,234.68132640000113,234.68132640000113,234.68132640000113,235.68081869999878,235.68081869999878,x,1,0.5456507999988389,037538,001,2022-10-06_14h38.50.162,MotorSequenceLearningTask,2022.2.4,60.94316866704763,
150,v,22,1,89,1,,,,,236.24714980000135,237.24664219999977,237.24664219999977,237.24664219999977,237.24664219999977,237.24664219999977,238.2459897000008,238.2459897000008,v,1,0.2907116999995196,037538,001,2022-10-06_14h38.50.162,MotorSequenceLearningTask,2022.2.4,60.94316866704763,
50,c,22,2,90,2,,,,,238.5625101000005,239.56193050000002,239.56193050000002,239.56193050000002,239.56193050000002,239.56193050000002,240.5613396000008,240.5613396000008,c,1,0.26046299999870826,037538,001,2022-10-06_14h38.50.162,MotorSequenceLearningTask,2022.2.4,60.94316866704763,
-150,z,22,3,91,3,,,,,240.84461799999917,241.84403920000113,241.84403920000113,241.84403920000113,241.84403920000113,241.84403920000113,242.8435227000009,242.8435227000009,z,1,0.2814351999986684,037538,001,2022-10-06_14h38.50.162,MotorSequenceLearningTask,2022.2.4,60.94316866704763,
-50,x,23,0,92,0,,,,,243.14339800000016,244.1428003000001,244.1428003000001,244.1428003000001,244.1428003000001,244.1428003000001,245.14218299999993,245.14218299999993,x,1,0.2710416999980225,037538,001,2022-10-06_14h38.50.162,MotorSequenceLearningTask,2022.2.4,60.94316866704763,
150,v,23,1,93,1,,,,,245.44205040000088,246.4415446999992,246.4415446999992,246.4415446999992,246.4415446999992,246.4415446999992,247.44098310000118,247.44098310000118,v,1,0.21931869999752962,037538,001,2022-10-06_14h38.50.162,MotorSequenceLearningTask,2022.2.4,60.94316866704763,
50,c,23,2,94,2,,,,,247.6909114000009,248.6902618000022,248.6902618000022,248.6902618000022,248.6902618000022,248.6902618000022,249.68970049999916,249.68970049999916,c,1,0.24575080000067828,037538,001,2022-10-06_14h38.50.162,MotorSequenceLearningTask,2022.2.4,60.94316866704763,
-150,z,23,3,95,3,,,,,249.95635129999937,250.95571819999896,250.95571819999896,250.95571819999896,250.95571819999896,250.95571819999896,251.95510750000176,251.95510750000176,z,1,0.25857369999721413,037538,001,2022-10-06_14h38.50.162,MotorSequenceLearningTask,2022.2.4,60.94316866704763,
150,v,,,,,0,0,0,1,252.23934060000101,253.237783200002,253.237783200002,253.237783200002,253.237783200002,253.2543265000022,254.23754850000114,254.23754850000114,v,1,0.5633484999998473,037538,001,2022-10-06_14h38.50.162,MotorSequenceLearningTask,2022.2.4,60.94316866704763,
50,c,,,,,0,1,1,2,254.82023689999914,255.8195553000005,255.8195553000005,255.8195553000005,255.8195553000005,255.8195553000005,256.81901429999925,256.81901429999925,c,1,0.5040802999974403,037538,001,2022-10-06_14h38.50.162,MotorSequenceLearningTask,2022.2.4,60.94316866704763,
-50,x,,,,,0,2,2,0,257.35222970000177,258.3514529999993,258.3514529999993,258.3514529999993,258.3514529999993,258.3514529999993,259.3510597000022,259.3510597000022,x,1,0.5981872999982443,037538,001,2022-10-06_14h38.50.162,MotorSequenceLearningTask,2022.2.4,60.94316866704763,
150,v,,,,,0,3,3,1,259.96744169999874,260.96682919999876,260.96682919999876,260.96682919999876,260.96682919999876,260.96682919999876,261.9662215999997,261.9662215999997,v,1,0.4211615999993228,037538,001,2022-10-06_14h38.50.162,MotorSequenceLearningTask,2022.2.4,60.94316866704763,
-50,x,,,,,1,0,4,0,262.4158399000007,263.4154701000007,263.4154701000007,263.4154701000007,263.4154701000007,263.4154701000007,264.4147290000001,264.4147290000001,x,1,0.6358870000003662,037538,001,2022-10-06_14h38.50.162,MotorSequenceLearningTask,2022.2.4,60.94316866704763,
-50,x,,,,,1,1,5,0,265.08106039999984,266.080817500002,266.080817500002,266.080817500002,266.080817500002,266.080817500002,267.0800263000019,267.0800263000019,x,1,0.7177946999981941,037538,001,2022-10-06_14h38.50.162,MotorSequenceLearningTask,2022.2.4,60.94316866704763,
150,v,,,,,1,2,6,1,267.8295715000022,268.8290445999992,268.8290445999992,268.8290445999992,268.8290445999992,268.8290445999992,269.8284585000001,269.8284585000001,v,1,0.46853769999870565,037538,001,2022-10-06_14h38.50.162,MotorSequenceLearningTask,2022.2.4,60.94316866704763,
-50,x,,,,,1,3,7,0,270.3281888999991,271.3277128000009,271.3277128000009,271.3277128000009,271.3277128000009,271.3277128000009,272.3272990000005,272.3272990000005,x,1,0.32797449999998207,037538,001,2022-10-06_14h38.50.162,MotorSequenceLearningTask,2022.2.4,60.94316866704763,
-150,z,,,,,2,0,8,3,272.67692720000196,273.67630199999985,273.67630199999985,273.67630199999985,273.67630199999985,273.67630199999985,274.67581979999886,274.67581979999886,z,1,0.4407543999986956,037538,001,2022-10-06_14h38.50.162,MotorSequenceLearningTask,2022.2.4,60.94316866704763,
150,v,,,,,2,1,9,1,275.14213759999984,276.14163460000054,276.14163460000054,276.14163460000054,276.14163460000054,276.14163460000054,277.14113559999896,277.14113559999896,v,1,0.4404590999984066,037538,001,2022-10-06_14h38.50.162,MotorSequenceLearningTask,2022.2.4,60.94316866704763,
150,v,,,,,2,2,10,1,277.6074397000011,278.6068861999993,278.6068861999993,278.6068861999993,278.6068861999993,278.6068861999993,279.6063608000004,279.6063608000004,v,1,0.43140519999724347,037538,001,2022-10-06_14h38.50.162,MotorSequenceLearningTask,2022.2.4,60.94316866704763,
-150,z,,,,,2,3,11,3,280.0560915999995,281.0555397999997,281.0555397999997,281.0555397999997,281.0555397999997,281.0555397999997,282.0549542000008,282.0549542000008,z,1,0.6509824999993725,037538,001,2022-10-06_14h38.50.162,MotorSequenceLearningTask,2022.2.4,60.94316866704763,
-50,x,,,,,3,0,12,0,282.7380211000018,283.73741940000036,283.73741940000036,283.73741940000036,283.73741940000036,283.73741940000036,284.7368821000018,284.7368821000018,x,1,0.32133560000147554,037538,001,2022-10-06_14h38.50.162,MotorSequenceLearningTask,2022.2.4,60.94316866704763,
-50,x,,,,,3,1,13,0,285.08673890000136,286.08613740000146,286.08613740000146,286.08613740000146,286.08613740000146,286.08613740000146,287.0855713000019,287.0855713000019,x,1,0.48480429999835906,037538,001,2022-10-06_14h38.50.162,MotorSequenceLearningTask,2022.2.4,60.94316866704763,
50,c,,,,,3,2,14,2,287.60191770000165,288.6014138999999,288.6014138999999,288.6014138999999,288.6014138999999,288.6014138999999,289.6007654000023,289.6007654000023,c,1,0.5417678999983764,037538,001,2022-10-06_14h38.50.162,MotorSequenceLearningTask,2022.2.4,60.94316866704763,
-150,z,,,,,3,3,15,3,290.1671535000023,291.16657490000216,291.16657490000216,291.16657490000216,291.16657490000216,291.16657490000216,292.1660692000005,292.1660692000005,z,1,0.39980309999737074,037538,001,2022-10-06_14h38.50.162,MotorSequenceLearningTask,2022.2.4,60.94316866704763,
150,v,,,,,4,0,16,1,292.5824214999993,293.58190540000214,293.58190540000214,293.58190540000214,293.58190540000214,293.58190540000214,294.58137239999996,294.58137239999996,v,1,0.47850299999845447,037538,001,2022-10-06_14h38.50.162,MotorSequenceLearningTask,2022.2.4,60.94316866704763,
150,v,,,,,4,1,17,1,295.0809803000011,296.0805317000013,296.0805317000013,296.0805317000013,296.0805317000013,296.0805317000013,297.0799059000019,297.0799059000019,v,1,0.5101851999970677,037538,001,2022-10-06_14h38.50.162,MotorSequenceLearningTask,2022.2.4,60.94316866704763,
150,v,,,,,4,2,18,1,297.6129753000023,298.6126132999998,298.6126132999998,298.6126132999998,298.6126132999998,298.6126132999998,299.61203730000125,299.61203730000125,v,1,0.4912936999971862,037538,001,2022-10-06_14h38.50.162,MotorSequenceLearningTask,2022.2.4,60.94316866704763,
-50,x,,,,,4,3,19,0,300.1282385000013,301.1275385000008,301.1275385000008,301.1275385000008,301.1275385000008,301.1275385000008,302.1269788999998,302.1269788999998,x,1,0.8955291999991459,037538,001,2022-10-06_14h38.50.162,MotorSequenceLearningTask,2022.2.4,60.94316866704763,
-50,x,,,,,5,0,20,0,303.043345099999,304.042723999999,304.042723999999,304.042723999999,304.042723999999,304.042723999999,305.04213380000147,305.04213380000147,x,1,0.5085801999994146,037538,001,2022-10-06_14h38.50.162,MotorSequenceLearningTask,2022.2.4,60.94316866704763,
-50,x,,,,,5,1,21,0,305.57524750000084,306.574668199999,306.574668199999,306.574668199999,306.574668199999,306.574668199999,307.574059999999,307.574059999999,x,1,0.48786959999779356,037538,001,2022-10-06_14h38.50.162,MotorSequenceLearningTask,2022.2.4,60.94316866704763,
-150,z,,,,,5,2,22,3,308.09046180000223,309.0899451000005,309.0899451000005,309.0899451000005,309.0899451000005,309.0899451000005,310.08944650000194,310.08944650000194,z,1,0.43654569999853265,037538,001,2022-10-06_14h38.50.162,MotorSequenceLearningTask,2022.2.4,60.94316866704763,
-150,z,,,,,5,3,23,3,310.5557680999991,311.55522380000184,311.55522380000184,311.55522380000184,311.55522380000184,311.55522380000184,312.55479729999934,312.55479729999934,z,1,0.547433199997613,037538,001,2022-10-06_14h38.50.162,MotorSequenceLearningTask,2022.2.4,60.94316866704763,
50,c,,,,,6,0,24,2,313.1208632000016,314.1204576000018,314.1204576000018,314.1204576000018,314.1204576000018,314.1204576000018,315.11982530000023,315.11982530000023,c,1,0.6545906999999715,037538,001,2022-10-06_14h38.50.162,MotorSequenceLearningTask,2022.2.4,60.94316866704763,
-50,x,,,,,6,1,25,0,315.80265080000027,316.8021317999992,316.8021317999992,316.8021317999992,316.8021317999992,316.8021317999992,317.80162140000175,317.80162140000175,x,1,0.3229871000003186,037538,001,2022-10-06_14h38.50.162,MotorSequenceLearningTask,2022.2.4,60.94316866704763,
-50,x,,,,,6,2,26,0,318.15144520000104,319.15107630000057,319.15107630000057,319.15107630000057,319.15107630000057,319.15107630000057,320.1502944999993,320.1502944999993,c,0,0.5012992999982089,037538,001,2022-10-06_14h38.50.162,MotorSequenceLearningTask,2022.2.4,60.94316866704763,
-150,z,,,,,6,3,27,3,320.68345279999994,321.6828448000015,321.6828448000015,321.6828448000015,321.6828448000015,321.6828448000015,322.68226739999955,322.68226739999955,z,1,0.47658729999966454,037538,001,2022-10-06_14h38.50.162,MotorSequenceLearningTask,2022.2.4,60.94316866704763,
50,c,,,,,7,0,28,2,323.1818794999999,324.1814083999998,324.1814083999998,324.1814083999998,324.1814083999998,324.1814083999998,325.18099079999956,325.18099079999956,c,1,0.7750377999982447,037538,001,2022-10-06_14h38.50.162,MotorSequenceLearningTask,2022.2.4,60.94316866704763,
50,c,,,,,7,1,29,2,325.98044930000106,326.9799047000015,326.9799047000015,326.9799047000015,326.9799047000015,326.9799047000015,327.97934499999974,327.97934499999974,c,1,0.4609143999987282,037538,001,2022-10-06_14h38.50.162,MotorSequenceLearningTask,2022.2.4,60.94316866704763,
150,v,,,,,7,2,30,1,328.46238240000093,329.4619469999998,329.4619469999998,329.4619469999998,329.4619469999998,329.4619469999998,330.46120729999893,330.46120729999893,v,1,0.3871343999999226,037538,001,2022-10-06_14h38.50.162,MotorSequenceLearningTask,2022.2.4,60.94316866704763,
150,v,,,,,7,3,31,1,330.8775996000004,331.8772448999989,331.8772448999989,331.8772448999989,331.8772448999989,331.8772448999989,332.8765304000008,332.8765304000008,v,1,0.4738145000010263,037538,001,2022-10-06_14h38.50.162,MotorSequenceLearningTask,2022.2.4,60.94316866704763,
150,v,,,,,8,0,32,1,333.3763981000011,334.3758387000016,334.3758387000016,334.3758387000016,334.3758387000016,334.3758387000016,335.3751248000008,335.3751248000008,v,1,0.3863192999961029,037538,001,2022-10-06_14h38.50.162,MotorSequenceLearningTask,2022.2.4,60.94316866704763,
-50,x,,,,,8,1,33,0,335.7915475000009,336.79116870000144,336.79116870000144,336.79116870000144,336.79116870000144,336.79116870000144,337.7906017999994,337.7906017999994,x,1,0.6342136999992363,037538,001,2022-10-06_14h38.50.162,MotorSequenceLearningTask,2022.2.4,60.94316866704763,
150,v,,,,,8,2,34,1,338.45683629999985,339.45624959999986,339.45624959999986,339.45624959999986,339.45624959999986,339.45624959999986,340.4556518999998,340.4556518999998,v,1,0.47728989999814075,037538,001,2022-10-06_14h38.50.162,MotorSequenceLearningTask,2022.2.4,60.94316866704763,
150,v,,,,,8,3,35,1,340.95535910000035,341.95483479999893,341.95483479999893,341.95483479999893,341.95483479999893,341.95483479999893,342.95428130000073,342.95428130000073,v,1,0.4107114999969781,037538,001,2022-10-06_14h38.50.162,MotorSequenceLearningTask,2022.2.4,60.94316866704763,
50,c,,,,,9,0,36,2,343.38726529999985,344.38691990000007,344.38691990000007,344.38691990000007,344.38691990000007,344.38691990000007,345.38638600000195,345.38638600000195,c,1,0.8228573999986111,037538,001,2022-10-06_14h38.50.162,MotorSequenceLearningTask,2022.2.4,60.94316866704763,
-50,x,,,,,9,1,37,0,346.2358927000023,347.2352761000002,347.2352761000002,347.2352761000002,347.2352761000002,347.2352761000002,348.2346061999997,348.2346061999997,x,1,0.4918550999973377,037538,001,2022-10-06_14h38.50.162,MotorSequenceLearningTask,2022.2.4,60.94316866704763,
-50,x,,,,,9,2,38,0,348.7514422999993,349.7504946000008,349.7504946000008,349.7504946000008,349.7504946000008,349.7504946000008,350.74992660000134,350.74992660000134,x,1,0.6167633000004571,037538,001,2022-10-06_14h38.50.162,MotorSequenceLearningTask,2022.2.4,60.94316866704763,
50,c,,,,,9,3,39,2,351.38298750000104,352.38230250000197,352.38230250000197,352.38230250000197,352.38230250000197,352.38230250000197,353.3818585000008,353.3818585000008,c,1,0.606028599995625,037538,001,2022-10-06_14h38.50.162,MotorSequenceLearningTask,2022.2.4,60.94316866704763,
50,c,,,,,10,0,40,2,354.0149101999996,355.01424340000085,355.01424340000085,355.01424340000085,355.01424340000085,355.01424340000085,356.01379290000114,356.01379290000114,c,1,0.5042312999976275,037538,001,2022-10-06_14h38.50.162,MotorSequenceLearningTask,2022.2.4,60.94316866704763,
50,c,,,,,10,1,41,2,356.54677979999906,357.54624200000035,357.54624200000035,357.54624200000035,357.54624200000035,357.54624200000035,358.54568629999994,358.54568629999994,c,1,0.6155212999983632,037538,001,2022-10-06_14h38.50.162,MotorSequenceLearningTask,2022.2.4,60.94316866704763,
-50,x,,,,,10,2,42,0,359.1786678999997,360.1781160999999,360.1781160999999,360.1781160999999,360.1781160999999,360.1781160999999,361.1775923999994,361.1775923999994,x,1,0.49881559999630554,037538,001,2022-10-06_14h38.50.162,MotorSequenceLearningTask,2022.2.4,60.94316866704763,
-50,x,,,,,10,3,43,0,361.6939783000016,362.6933218000013,362.6933218000013,362.6933218000013,362.6933218000013,362.6933218000013,363.692704699999,363.692704699999,x,1,0.3830013999977382,037538,001,2022-10-06_14h38.50.162,MotorSequenceLearningTask,2022.2.4,60.94316866704763,
150,v,,,,,11,0,44,1,364.09252919999926,365.0920952000015,365.0920952000015,365.0920952000015,365.0920952000015,365.0920952000015,366.09138990000065,366.09138990000065,v,1,0.4784107999985281,037538,001,2022-10-06_14h38.50.162,MotorSequenceLearningTask,2022.2.4,60.94316866704763,
-50,x,,,,,11,1,45,0,366.59113309999884,367.59052679999877,367.59052679999877,367.59052679999877,367.59052679999877,367.59052679999877,368.5900357999999,368.5900357999999,x,1,0.4663150999986101,037538,001,2022-10-06_14h38.50.162,MotorSequenceLearningTask,2022.2.4,60.94316866704763,
50,c,,,,,11,2,46,2,369.0731325000015,370.0725672000008,370.0725672000008,370.0725672000008,370.0725672000008,370.0725672000008,371.07204710000224,371.07204710000224,c,1,0.8020739999992657,037538,001,2022-10-06_14h38.50.162,MotorSequenceLearningTask,2022.2.4,60.94316866704763,
50,c,,,,,11,3,47,2,371.90490320000026,372.90421699999933,372.90421699999933,372.90421699999933,372.90421699999933,372.90421699999933,373.9037840000019,373.9037840000019,c,1,0.575864399997954,037538,001,2022-10-06_14h38.50.162,MotorSequenceLearningTask,2022.2.4,60.94316866704763,
-150,z,,,,,12,0,48,3,374.5034536000021,375.50282159999915,375.50282159999915,375.50282159999915,375.50282159999915,375.50282159999915,376.5023211000007,376.5023211000007,z,1,0.4654570999991847,037538,001,2022-10-06_14h38.50.162,MotorSequenceLearningTask,2022.2.4,60.94316866704763,
150,v,,,,,12,1,49,1,376.98526929999935,377.9848392999993,377.9848392999993,377.9848392999993,377.9848392999993,377.9848392999993,378.98423600000024,378.98423600000024,v,1,0.32772750000003725,037538,001,2022-10-06_14h38.50.162,MotorSequenceLearningTask,2022.2.4,60.94316866704763,
-150,z,,,,,12,2,50,3,379.3338833000016,380.3337754000022,380.3337754000022,380.3337754000022,380.3337754000022,380.3337754000022,381.33283460000166,381.33283460000166,z,1,0.5093553000006068,037538,001,2022-10-06_14h38.50.162,MotorSequenceLearningTask,2022.2.4,60.94316866704763,
150,v,,,,,12,3,51,1,381.8657540000022,382.86539300000004,382.86539300000004,382.86539300000004,382.86539300000004,382.86539300000004,383.8648725999992,383.8648725999992,v,1,0.4414894999972603,037538,001,2022-10-06_14h38.50.162,MotorSequenceLearningTask,2022.2.4,60.94316866704763,
-50,x,,,,,13,0,52,0,384.3313288999998,385.3308486999995,385.3308486999995,385.3308486999995,385.3308486999995,385.3308486999995,386.3301484000003,386.3301484000003,x,1,0.4644326999987243,037538,001,2022-10-06_14h38.50.162,MotorSequenceLearningTask,2022.2.4,60.94316866704763,
150,v,,,,,13,1,53,1,386.8131085000023,387.81273630000214,387.81273630000214,387.81273630000214,387.81273630000214,387.81273630000214,388.81199019999985,388.81199019999985,v,1,0.321841900000436,037538,001,2022-10-06_14h38.50.162,MotorSequenceLearningTask,2022.2.4,60.94316866704763,
50,c,,,,,13,2,54,2,389.16186860000016,390.1613757000014,390.1613757000014,390.1613757000014,390.1613757000014,390.1613757000014,391.16094800000064,391.16094800000064,c,1,0.49598450000121375,037538,001,2022-10-06_14h38.50.162,MotorSequenceLearningTask,2022.2.4,60.94316866704763,
-150,z,,,,,13,3,55,3,391.67708800000037,392.67659060000005,392.67659060000005,392.67659060000005,392.67659060000005,392.67659060000005,393.67601189999914,393.67601189999914,z,1,0.41508990000147605,037538,001,2022-10-06_14h38.50.162,MotorSequenceLearningTask,2022.2.4,60.94316866704763,
50,c,,,,,14,0,56,2,394.1091818999994,395.1085650000023,395.1085650000023,395.1085650000023,395.1085650000023,395.1085650000023,396.1080886999989,396.1080886999989,c,1,0.6374122999986866,037538,001,2022-10-06_14h38.50.162,MotorSequenceLearningTask,2022.2.4,60.94316866704763,
150,v,,,,,14,1,57,1,396.7743965000009,397.77379719999954,397.77379719999954,397.77379719999954,397.77379719999954,397.77379719999954,398.77316150000115,398.77316150000115,v,1,1.0894567999966966,037538,001,2022-10-06_14h38.50.162,MotorSequenceLearningTask,2022.2.4,60.94316866704763,
-50,x,,,,,14,2,58,0,399.8892186000012,400.8887759999998,400.8887759999998,400.8887759999998,400.8887759999998,400.8887759999998,401.88811910000004,401.88811910000004,x,1,0.6868730999995023,037538,001,2022-10-06_14h38.50.162,MotorSequenceLearningTask,2022.2.4,60.94316866704763,
50,c,,,,,14,3,59,2,402.60430070000075,403.603990399999,403.603990399999,403.603990399999,403.603990399999,403.603990399999,404.60322830000223,404.60322830000223,c,1,0.7898917999991681,037538,001,2022-10-06_14h38.50.162,MotorSequenceLearningTask,2022.2.4,60.94316866704763,
50,c,,,,,15,0,60,2,405.4194705000009,406.41884819999905,406.41884819999905,406.41884819999905,406.41884819999905,406.41884819999905,407.41832240000076,407.41832240000076,c,1,0.6809620999993058,037538,001,2022-10-06_14h38.50.162,MotorSequenceLearningTask,2022.2.4,60.94316866704763,
-150,z,,,,,15,1,61,3,408.1179693000013,409.11748250000164,409.11748250000164,409.11748250000164,409.11748250000164,409.11748250000164,410.1169136999997,410.1169136999997,z,1,0.5256071999974665,037538,001,2022-10-06_14h38.50.162,MotorSequenceLearningTask,2022.2.4,60.94316866704763,
50,c,,,,,15,2,62,2,410.6665885000002,411.6660168999988,411.6660168999988,411.6660168999988,411.6660168999988,411.6660168999988,412.6653604999992,412.6653604999992,c,1,0.3713236000003235,037538,001,2022-10-06_14h38.50.162,MotorSequenceLearningTask,2022.2.4,60.94316866704763,
-150,z,,,,,15,3,63,3,413.0651356999988,414.0646177999988,414.0646177999988,414.0646177999988,414.0646177999988,414.0646177999988,415.0641832000001,415.0641832000001,z,1,0.49879560000044876,037538,001,2022-10-06_14h38.50.162,MotorSequenceLearningTask,2022.2.4,60.94316866704763,
-150,z,,,,,16,0,64,3,415.58049160000155,416.5799680000018,416.5799680000018,416.5799680000018,416.5799680000018,416.5799680000018,417.5793525000008,417.5793525000008,z,1,0.4487361999999848,037538,001,2022-10-06_14h38.50.162,MotorSequenceLearningTask,2022.2.4,60.94316866704763,
50,c,,,,,16,1,65,2,418.04590989999997,419.04529230000117,419.04529230000117,419.04529230000117,419.04529230000117,419.04529230000117,420.04478010000093,420.04478010000093,c,1,0.7434593999969366,037538,001,2022-10-06_14h38.50.162,MotorSequenceLearningTask,2022.2.4,60.94316866704763,
-150,z,,,,,16,2,66,3,420.81109880000076,421.81042069999967,421.81042069999967,421.81042069999967,421.81042069999967,421.81042069999967,422.8097498999996,422.8097498999996,z,1,0.43168470000091475,037538,001,2022-10-06_14h38.50.162,MotorSequenceLearningTask,2022.2.4,60.94316866704763,
-50,x,,,,,16,3,67,0,423.2595970000002,424.2590343000011,424.2590343000011,424.2590343000011,424.2590343000011,424.2590343000011,425.2585841,425.2585841,x,1,0.6680522999995446,037538,001,2022-10-06_14h38.50.162,MotorSequenceLearningTask,2022.2.4,60.94316866704763,
-50,x,,,,,17,0,68,0,425.95803270000033,426.9574011000004,426.9574011000004,426.9574011000004,426.9574011000004,426.9574011000004,427.9568655000003,427.9568655000003,x,1,1.2460562999985996,037538,001,2022-10-06_14h38.50.162,MotorSequenceLearningTask,2022.2.4,60.94316866704763,
50,c,,,,,17,1,69,2,429.22293770000033,430.2222021000016,430.2222021000016,430.2222021000016,430.2222021000016,430.2222021000016,431.22221329999957,431.22221329999957,c,1,0.4529792999965139,037538,001,2022-10-06_14h38.50.162,MotorSequenceLearningTask,2022.2.4,60.94316866704763,
150,v,,,,,17,2,70,1,431.70466560000204,432.7043408999998,432.7043408999998,432.7043408999998,432.7043408999998,432.7043408999998,433.7037420000015,433.7037420000015,v,1,0.38470199999937904,037538,001,2022-10-06_14h38.50.162,MotorSequenceLearningTask,2022.2.4,60.94316866704763,
-50,x,,,,,17,3,71,0,434.1201374000011,435.11959690000003,435.11959690000003,435.11959690000003,435.11959690000003,435.11959690000003,436.1190420999992,436.1190420999992,x,1,0.5215395000013814,037538,001,2022-10-06_14h38.50.162,MotorSequenceLearningTask,2022.2.4,60.94316866704763,
-150,z,,,,,18,0,72,3,436.66864350000105,437.668318,437.668318,437.668318,437.668318,437.668318,438.6676296000005,438.6676296000005,z,1,0.4899849999965227,037538,001,2022-10-06_14h38.50.162,MotorSequenceLearningTask,2022.2.4,60.94316866704763,
-50,x,,,,,18,1,73,0,439.18387620000067,440.18345939999926,440.18345939999926,440.18345939999926,440.18345939999926,440.18345939999926,441.1828931000018,441.1828931000018,x,1,0.6060737000007066,037538,001,2022-10-06_14h38.50.162,MotorSequenceLearningTask,2022.2.4,60.94316866704763,
-150,z,,,,,18,2,74,3,441.81589879999956,442.8152463000006,442.8152463000006,442.8152463000006,442.8152463000006,442.8152463000006,443.8157128999992,443.8157128999992,z,1,0.6993883999966783,037538,001,2022-10-06_14h38.50.162,MotorSequenceLearningTask,2022.2.4,60.94316866704763,
50,c,,,,,18,3,75,2,444.54758109999966,445.5472321999987,445.5472321999987,445.5472321999987,445.5472321999987,445.5472321999987,446.5465569000007,446.5465569000007,c,1,0.5917126999993343,037538,001,2022-10-06_14h38.50.162,MotorSequenceLearningTask,2022.2.4,60.94316866704763,
50,c,,,,,19,0,76,2,447.16290800000206,448.1622410000018,448.1622410000018,448.1622410000018,448.1622410000018,448.1622410000018,449.1618125999994,449.1618125999994,c,1,0.441643699999986,037538,001,2022-10-06_14h38.50.162,MotorSequenceLearningTask,2022.2.4,60.94316866704763,
-150,z,,,,,19,1,77,3,449.62855090000085,450.6278308000001,450.6278308000001,450.6278308000001,450.6278308000001,450.6278308000001,451.6272038999996,451.6272038999996,z,1,0.46747469999900204,037538,001,2022-10-06_14h38.50.162,MotorSequenceLearningTask,2022.2.4,60.94316866704763,
-150,z,,,,,19,2,78,3,452.12701000000015,453.1262754999989,453.1262754999989,453.1262754999989,453.1262754999989,453.1262754999989,454.12576940000145,454.12576940000145,z,1,0.39505369999824325,037538,001,2022-10-06_14h38.50.162,MotorSequenceLearningTask,2022.2.4,60.94316866704763,
50,c,,,,,19,3,79,2,454.54215359999944,455.5414227000001,455.5414227000001,455.5414227000001,455.5414227000001,455.5414227000001,456.5412576999988,456.5412576999988,c,1,0.7477668999999878,037538,001,2022-10-06_14h38.50.162,MotorSequenceLearningTask,2022.2.4,60.94316866704763,
50,c,,,,,20,0,80,2,457.3072619000013,458.3067598999987,458.3067598999987,458.3067598999987,458.3067598999987,458.3067598999987,459.30620700000145,459.30620700000145,c,1,0.3930454999972426,037538,001,2022-10-06_14h38.50.162,MotorSequenceLearningTask,2022.2.4,60.94316866704763,
-150,z,,,,,20,1,81,3,459.72269510000115,460.72205640000175,460.72205640000175,460.72205640000175,460.72205640000175,460.72205640000175,461.7214390000008,461.7214390000008,z,1,1.0170218999955978,037538,001,2022-10-06_14h38.50.162,MotorSequenceLearningTask,2022.2.4,60.94316866704763,
50,c,,,,,20,2,82,2,462.770922300002,463.7703637000013,463.7703637000013,463.7703637000013,463.7703637000013,463.7703637000013,464.7696935999993,464.7696935999993,c,1,0.625960599998507,037538,001,2022-10-06_14h38.50.162,MotorSequenceLearningTask,2022.2.4,60.94316866704763,
150,v,,,,,20,3,83,1,465.42011569999886,466.41875530000107,466.41875530000107,466.41875530000107,466.41875530000107,466.4354585000001,467.4184888999989,467.4184888999989,v,1,1.6224530999970739,037538,001,2022-10-06_14h38.50.162,MotorSequenceLearningTask,2022.2.4,60.94316866704763,
-150,z,,,,,21,0,84,3,469.0672823999994,470.06694620000053,470.06694620000053,470.06694620000053,470.06694620000053,470.06694620000053,471.06634080000003,471.06634080000003,z,1,0.5078033999998297,037538,001,2022-10-06_14h38.50.162,MotorSequenceLearningTask,2022.2.4,60.94316866704763,
-150,z,,,,,21,1,85,3,471.59939360000135,472.59867080000186,472.59867080000186,472.59867080000186,472.59867080000186,472.59867080000186,473.59800919999907,473.59800919999907,z,1,0.5713293999979214,037538,001,2022-10-06_14h38.50.162,MotorSequenceLearningTask,2022.2.4,60.94316866704763,
-150,z,,,,,21,2,86,3,474.1976309999991,475.1972228000013,475.1972228000013,475.1972228000013,475.1972228000013,475.1972228000013,476.1968846999989,476.1968846999989,z,1,1.2827077000001736,037538,001,2022-10-06_14h38.50.162,MotorSequenceLearningTask,2022.2.4,60.94316866704763,
150,v,,,,,21,3,87,1,477.4959533000001,478.4957605000018,478.4957605000018,478.4957605000018,478.4957605000018,478.4957605000018,479.4947862000008,479.4947862000008,v,1,0.3079513999982737,037538,001,2022-10-06_14h38.50.162,MotorSequenceLearningTask,2022.2.4,60.94316866704763,
-150,z,,,,,22,0,88,3,479.82779780000055,480.82730359999914,480.82730359999914,480.82730359999914,480.82730359999914,480.82730359999914,481.8269106000007,481.8269106000007,z,1,0.45899869999993825,037538,001,2022-10-06_14h38.50.162,MotorSequenceLearningTask,2022.2.4,60.94316866704763,
150,v,,,,,22,1,89,1,482.30989079999927,483.3095897000021,483.3095897000021,483.3095897000021,483.3095897000021,483.3095897000021,484.30882810000185,484.30882810000185,v,1,0.5033292999978585,037538,001,2022-10-06_14h38.50.162,MotorSequenceLearningTask,2022.2.4,60.94316866704763,
150,v,,,,,22,2,90,1,484.84174820000044,485.8412644000018,485.8412644000018,485.8412644000018,485.8412644000018,485.8412644000018,486.84069680000175,486.84069680000175,v,1,0.47359140000116895,037538,001,2022-10-06_14h38.50.162,MotorSequenceLearningTask,2022.2.4,60.94316866704763,
150,v,,,,,22,3,91,1,487.3404335000014,488.34306389999983,488.34306389999983,488.34306389999983,488.34306389999983,488.34306389999983,489.33953680000195,489.33953680000195,v,1,0.4549360999990313,037538,001,2022-10-06_14h38.50.162,MotorSequenceLearningTask,2022.2.4,60.94316866704763,
-50,x,,,,,23,0,92,0,489.8224580999995,490.82181090000086,490.82181090000086,490.82181090000086,490.82181090000086,490.82181090000086,491.82135610000114,491.82135610000114,x,1,0.6273142999962147,037538,001,2022-10-06_14h38.50.162,MotorSequenceLearningTask,2022.2.4,60.94316866704763,
-150,z,,,,,23,1,93,3,492.47074989999965,493.4703023000002,493.4703023000002,493.4703023000002,493.4703023000002,493.4703023000002,494.47010729999965,494.47010729999965,z,1,0.43880859999990207,037538,001,2022-10-06_14h38.50.162,MotorSequenceLearningTask,2022.2.4,60.94316866704763,
50,c,,,,,23,2,94,2,494.93625560000146,495.9357748000002,495.9357748000002,495.9357748000002,495.9357748000002,495.9357748000002,496.9351167999994,496.9351167999994,c,1,0.690035399999033,037538,001,2022-10-06_14h38.50.162,MotorSequenceLearningTask,2022.2.4,60.94316866704763,
-150,z,,,,,23,3,95,3,497.6514012000007,498.65083380000215,498.65083380000215,498.65083380000215,498.65083380000215,498.65083380000215,499.6503635000008,499.6503635000008,z,1,0.41794799999843235,037538,001,2022-10-06_14h38.50.162,MotorSequenceLearningTask,2022.2.4,60.94316866704763,
